Folder: GitManagedProjects-Kagawalab/研究/Sn/Sn_X線/190306

File: Ge_20190122_mid.TXT
Sample Ge-cutïi
Comments medium
Filename C:\WINDMAX\DATA\SHIMANO\XRD20190306\Ge_20190122_mid.raw
Goniometer TTRáV êÖïΩ∫ﬁ∆µ“∞¿(Tsé≤éËìÆ,ADS)
Attachment ïWèÄééóøŒŸ¿ﬁ∞
Monochromater å≈íË”…∏€“∞¿
ScanningMode 2Theta/Theta
ScanningType Continuos Scanning
X-Ray 40kV/300mA
î≠éUΩÿØƒ 2/3Åã
î≠éUècêßå¿ΩÿØƒ 10mm
éUóêΩÿØƒ 2/3Åã
éÛåıΩÿØƒ 0.3mm
±Ø√»∞¿ äJï˙
”…∏€éÛåıΩÿØƒ 0.8mm
Start 10
Stop 90
Step 0.02
10 150
10.28 134
10.56 150
10.84 132
11.12 155
11.4 147
11.68 139
11.96 131
12.24 136
12.52 123
12.8 112
13.08 147
13.36 120
13.64 137
13.92 125
14.2 156
14.48 165
14.76 165
15.04 154
15.32 161
15.6 159
15.88 162
16.16 161
16.44 169
16.72 148
17 164
17.28 171
17.56 163
17.84 166
18.12 188
18.4 168
18.68 191
18.96 198
19.24 210
19.52 197
19.8 201
20.08 172
20.36 190
20.64 214
20.92 254
21.2 221
21.48 250
21.76 257
22.04 269
22.32 327
22.6 308
22.88 266
23.16 273
23.44 267
23.72 231
24 245
24.28 229
24.56 242
24.84 220
25.12 224
25.4 198
25.68 196
25.96 230
26.24 249
26.52 230
26.8 244
27.08 228
27.36 258
27.64 210
27.92 197
28.2 215
28.48 227
28.76 201
29.04 216
29.32 213
29.6 193
29.88 196
30.16 222
30.44 200
30.72 205
31 209
31.28 175
31.56 161
31.84 189
32.12 171
32.4 178
32.68 177
32.96 180
33.24 187
33.52 161
33.8 156
34.08 155
34.36 178
34.64 162
34.92 160
35.2 141
35.48 129
35.76 188
36.04 159
36.32 156
36.6 116
36.88 107
37.16 121
37.44 126
37.72 126
38 127
38.28 112
38.56 126
38.84 97
39.12 114
39.4 102
39.68 118
39.96 125
40.24 112
40.52 105
40.8 118
41.08 109
41.36 117
41.64 143
41.92 118
42.2 103
42.48 93
42.76 103
43.04 121
43.32 115
43.6 88
43.88 114
44.16 105
44.44 107
44.72 115
45 131
45.28 121
45.56 125
45.84 104
46.12 115
46.4 95
46.68 89
46.96 98
47.24 99
47.52 95
47.8 99
48.08 100
48.36 111
48.64 99
48.92 83
49.2 71
49.48 82
49.76 94
50.04 96
50.32 91
50.6 94
50.88 94
51.16 109
51.44 75
51.72 82
52 83
52.28 75
52.56 83
52.84 93
53.12 93
53.4 109
53.68 94
53.96 97
54.24 86
54.52 87
54.8 76
55.08 96
55.36 94
55.64 70
55.92 89
56.2 91
56.48 90
56.76 75
57.04 84
57.32 97
57.6 96
57.88 83
58.16 88
58.44 76
58.72 78
59 103
59.28 87
59.56 92
59.84 106
60.12 87
60.4 95
60.68 84
60.96 92
61.24 75
61.52 94
61.8 87
62.08 95
62.36 86
62.64 76
62.92 85
63.2 85
63.48 74
63.76 74
64.04 63
64.32 81
64.6 73
64.88 81
65.16 97
65.44 86
65.72 84
66 76
66.28 79
66.56 75
66.84 75
67.12 68
67.4 85
67.68 81
67.96 96
68.24 90
68.52 73
68.8 76
69.08 62
69.36 68
69.64 83
69.92 63
70.2 66
70.48 61
70.76 66
71.04 93
71.32 71
71.6 75
71.88 72
72.16 78
72.44 77
72.72 65
73 71
73.28 63
73.56 62
73.84 73
74.12 58
74.4 57
74.68 71
74.96 75
75.24 54
75.52 64
75.8 67
76.08 75
76.36 66
76.64 63
76.92 73
77.2 73
77.48 64
77.76 61
78.04 58
78.32 56
78.6 62
78.88 62
79.16 57
79.44 66
79.72 40
80 49
80.28 43
80.56 59
80.84 53
81.12 59
81.4 57
81.68 63
81.96 53
82.24 48
82.52 51
82.8 54
83.08 56
83.36 52
83.64 53
83.92 58
84.2 52
84.48 56
84.76 52
85.04 56
85.32 49
85.6 46
85.88 47
86.16 46
86.44 59
86.72 46
87 60
87.28 53
87.56 47
87.84 56
88.12 58
88.4 42
88.68 62
88.96 60
89.24 57
89.52 74
89.8 142
90 214

File: glass_reference.TXT
Sample glass_reference
Comments rapid
Filename C:\WINDMAX\DATA\SHIMANO\XRD20190306\glass_reference.raw
Goniometer TTRáV êÖïΩ∫ﬁ∆µ“∞¿(Tsé≤éËìÆ,ADS)
Attachment ïWèÄééóøŒŸ¿ﬁ∞
Monochromater å≈íË”…∏€“∞¿
ScanningMode 2Theta/Theta
ScanningType Continuos Scanning
X-Ray 40kV/300mA
î≠éUΩÿØƒ 2/3Åã
î≠éUècêßå¿ΩÿØƒ 2mm
éUóêΩÿØƒ 2/3Åã
éÛåıΩÿØƒ 0.3mm
±Ø√»∞¿ äJï˙
”…∏€éÛåıΩÿØƒ 0.8mm
Start 10
Stop 90
Step 0.02
10 35
10.28 31
10.56 36
10.84 33
11.12 34
11.4 31
11.68 32
11.96 33
12.24 31
12.52 38
12.8 39
13.08 32
13.36 45
13.64 35
13.92 39
14.2 45
14.48 35
14.76 38
15.04 30
15.32 39
15.6 43
15.88 34
16.16 40
16.44 33
16.72 59
17 53
17.28 57
17.56 57
17.84 53
18.12 50
18.4 76
18.68 61
18.96 66
19.24 47
19.52 64
19.8 82
20.08 59
20.36 75
20.64 90
20.92 70
21.2 81
21.48 84
21.76 72
22.04 84
22.32 80
22.6 97
22.88 83
23.16 107
23.44 101
23.72 88
24 108
24.28 90
24.56 106
24.84 98
25.12 90
25.4 96
25.68 98
25.96 94
26.24 89
26.52 95
26.8 87
27.08 85
27.36 84
27.64 78
27.92 101
28.2 94
28.48 90
28.76 89
29.04 76
29.32 76
29.6 80
29.88 74
30.16 78
30.44 57
30.72 76
31 77
31.28 99
31.56 85
31.84 67
32.12 60
32.4 72
32.68 59
32.96 57
33.24 64
33.52 57
33.8 60
34.08 64
34.36 63
34.64 64
34.92 54
35.2 44
35.48 49
35.76 62
36.04 37
36.32 57
36.6 38
36.88 51
37.16 39
37.44 41
37.72 35
38 54
38.28 30
38.56 41
38.84 43
39.12 42
39.4 41
39.68 33
39.96 31
40.24 34
40.52 38
40.8 32
41.08 39
41.36 36
41.64 37
41.92 42
42.2 35
42.48 37
42.76 30
43.04 31
43.32 36
43.6 38
43.88 36
44.16 38
44.44 40
44.72 40
45 33
45.28 46
45.56 38
45.84 41
46.12 33
46.4 38
46.68 28
46.96 27
47.24 21
47.52 37
47.8 47
48.08 27
48.36 27
48.64 32
48.92 39
49.2 32
49.48 40
49.76 31
50.04 35
50.32 30
50.6 30
50.88 36
51.16 24
51.44 25
51.72 32
52 34
52.28 44
52.56 37
52.84 27
53.12 36
53.4 43
53.68 26
53.96 33
54.24 22
54.52 32
54.8 32
55.08 30
55.36 31
55.64 38
55.92 36
56.2 29
56.48 28
56.76 29
57.04 42
57.32 31
57.6 42
57.88 28
58.16 33
58.44 30
58.72 35
59 24
59.28 30
59.56 35
59.84 36
60.12 37
60.4 26
60.68 24
60.96 38
61.24 37
61.52 23
61.8 30
62.08 36
62.36 31
62.64 25
62.92 38
63.2 31
63.48 25
63.76 33
64.04 23
64.32 25
64.6 31
64.88 33
65.16 29
65.44 34
65.72 26
66 28
66.28 30
66.56 36
66.84 37
67.12 29
67.4 37
67.68 24
67.96 23
68.24 28
68.52 31
68.8 25
69.08 23
69.36 20
69.64 34
69.92 22
70.2 28
70.48 32
70.76 21
71.04 28
71.32 26
71.6 35
71.88 13
72.16 27
72.44 26
72.72 30
73 32
73.28 20
73.56 21
73.84 21
74.12 26
74.4 15
74.68 32
74.96 23
75.24 33
75.52 27
75.8 20
76.08 32
76.36 28
76.64 26
76.92 19
77.2 29
77.48 29
77.76 28
78.04 17
78.32 23
78.6 22
78.88 21
79.16 18
79.44 15
79.72 23
80 11
80.28 26
80.56 21
80.84 20
81.12 24
81.4 17
81.68 15
81.96 19
82.24 22
82.52 23
82.8 18
83.08 23
83.36 22
83.64 13
83.92 25
84.2 18
84.48 15
84.76 21
85.04 26
85.32 24
85.6 17
85.88 16
86.16 14
86.44 19
86.72 22
87 18
87.28 13
87.56 21
87.84 26
88.12 15
88.4 17
88.68 12
88.96 18
89.24 15
89.52 11
89.8 23
90 14

File: Si-wefer-2_20190122_mid.TXT
Sample Si-wefer-2
Comments medium
Filename C:\WINDMAX\DATA\SHIMANO\XRD20190306\Si-wefer-2_20190122_mid.raw
Goniometer TTRáV êÖïΩ∫ﬁ∆µ“∞¿(Tsé≤éËìÆ,ADS)
Attachment ïWèÄééóøŒŸ¿ﬁ∞
Monochromater å≈íË”…∏€“∞¿
ScanningMode 2Theta/Theta
ScanningType Continuos Scanning
X-Ray 40kV/300mA
î≠éUΩÿØƒ 2/3Åã
î≠éUècêßå¿ΩÿØƒ 10mm
éUóêΩÿØƒ 2/3Åã
éÛåıΩÿØƒ 0.3mm
±Ø√»∞¿ äJï˙
”…∏€éÛåıΩÿØƒ 0.8mm
Start 10
Stop 90
Step 0.02
10 113
10.28 105
10.56 108
10.84 103
11.12 94
11.4 100
11.68 112
11.96 115
12.24 85
12.52 113
12.8 96
13.08 94
13.36 105
13.64 108
13.92 90
14.2 64
14.48 82
14.76 94
15.04 98
15.32 86
15.6 89
15.88 90
16.16 91
16.44 78
16.72 68
17 72
17.28 83
17.56 74
17.84 85
18.12 89
18.4 88
18.68 84
18.96 75
19.24 84
19.52 85
19.8 86
20.08 87
20.36 82
20.64 81
20.92 74
21.2 96
21.48 102
21.76 84
22.04 76
22.32 79
22.6 104
22.88 91
23.16 86
23.44 107
23.72 98
24 98
24.28 113
24.56 114
24.84 104
25.12 95
25.4 95
25.68 112
25.96 110
26.24 84
26.52 112
26.8 110
27.08 88
27.36 110
27.64 104
27.92 108
28.2 97
28.48 110
28.76 96
29.04 111
29.32 96
29.6 82
29.88 92
30.16 96
30.44 111
30.72 110
31 99
31.28 90
31.56 110
31.84 110
32.12 89
32.4 97
32.68 87
32.96 104
33.24 113
33.52 104
33.8 96
34.08 87
34.36 81
34.64 96
34.92 81
35.2 88
35.48 100
35.76 85
36.04 71
36.32 84
36.6 79
36.88 66
37.16 63
37.44 63
37.72 64
38 64
38.28 62
38.56 59
38.84 75
39.12 50
39.4 56
39.68 71
39.96 64
40.24 55
40.52 53
40.8 50
41.08 57
41.36 55
41.64 40
41.92 51
42.2 45
42.48 56
42.76 53
43.04 50
43.32 54
43.6 55
43.88 44
44.16 53
44.44 61
44.72 54
45 61
45.28 59
45.56 58
45.84 46
46.12 42
46.4 60
46.68 53
46.96 47
47.24 54
47.52 51
47.8 43
48.08 49
48.36 41
48.64 51
48.92 41
49.2 40
49.48 48
49.76 36
50.04 63
50.32 49
50.6 61
50.88 40
51.16 54
51.44 48
51.72 40
52 45
52.28 46
52.56 33
52.84 42
53.12 35
53.4 42
53.68 53
53.96 40
54.24 45
54.52 41
54.8 27
55.08 47
55.36 36
55.64 40
55.92 45
56.2 42
56.48 33
56.76 41
57.04 36
57.32 35
57.6 26
57.88 36
58.16 44
58.44 43
58.72 42
59 46
59.28 47
59.56 40
59.84 45
60.12 47
60.4 36
60.68 46
60.96 44
61.24 37
61.52 37
61.8 38
62.08 39
62.36 38
62.64 55
62.92 52
63.2 44
63.48 46
63.76 44
64.04 37
64.32 52
64.6 49
64.88 61
65.16 51
65.44 45
65.72 67
66 82
66.28 65
66.56 92
66.84 97
67.12 101
67.4 137
67.68 175
67.96 171
68.24 181
68.52 259
68.8 304
69.08 4174
69.36 729
69.64 279
69.92 192
70.2 184
70.48 171
70.76 175
71.04 125
71.32 118
71.6 99
71.88 84
72.16 72
72.44 71
72.72 67
73 47
73.28 56
73.56 56
73.84 39
74.12 58
74.4 42
74.68 34
74.96 48
75.24 38
75.52 40
75.8 42
76.08 25
76.36 33
76.64 33
76.92 39
77.2 29
77.48 21
77.76 19
78.04 36
78.32 28
78.6 30
78.88 16
79.16 15
79.44 28
79.72 33
80 19
80.28 19
80.56 15
80.84 26
81.12 15
81.4 25
81.68 19
81.96 18
82.24 20
82.52 22
82.8 24
83.08 20
83.36 26
83.64 22
83.92 20
84.2 15
84.48 13
84.76 15
85.04 18
85.32 19
85.6 19
85.88 15
86.16 17
86.44 20
86.72 12
87 20
87.28 15
87.56 16
87.84 15
88.12 11
88.4 14
88.68 8
88.96 13
89.24 16
89.52 10
89.8 19
90 8

File: Si-wefer_20190122_mid.TXT
Sample Si-wefer
Comments medium
Filename C:\WINDMAX\DATA\SHIMANO\XRD20190306\Si-wefer_20190122_mid.raw
Goniometer TTRáV êÖïΩ∫ﬁ∆µ“∞¿(Tsé≤éËìÆ,ADS)
Attachment ïWèÄééóøŒŸ¿ﬁ∞
Monochromater å≈íË”…∏€“∞¿
ScanningMode 2Theta/Theta
ScanningType Continuos Scanning
X-Ray 40kV/300mA
î≠éUΩÿØƒ 2/3Åã
î≠éUècêßå¿ΩÿØƒ 10mm
éUóêΩÿØƒ 2/3Åã
éÛåıΩÿØƒ 0.3mm
±Ø√»∞¿ äJï˙
”…∏€éÛåıΩÿØƒ 0.8mm
Start 10
Stop 90
Step 0.02
10 126
10.28 115
10.56 108
10.84 121
11.12 118
11.4 114
11.68 108
11.96 114
12.24 98
12.52 78
12.8 104
13.08 107
13.36 101
13.64 114
13.92 91
14.2 101
14.48 93
14.76 91
15.04 94
15.32 91
15.6 100
15.88 76
16.16 68
16.44 94
16.72 88
17 91
17.28 86
17.56 82
17.84 82
18.12 77
18.4 92
18.68 92
18.96 87
19.24 94
19.52 89
19.8 100
20.08 80
20.36 85
20.64 112
20.92 79
21.2 83
21.48 100
21.76 75
22.04 75
22.32 97
22.6 108
22.88 102
23.16 96
23.44 117
23.72 119
24 90
24.28 105
24.56 77
24.84 109
25.12 105
25.4 104
25.68 125
25.96 98
26.24 88
26.52 99
26.8 127
27.08 102
27.36 125
27.64 100
27.92 103
28.2 98
28.48 112
28.76 119
29.04 105
29.32 93
29.6 93
29.88 103
30.16 95
30.44 114
30.72 94
31 114
31.28 110
31.56 102
31.84 97
32.12 105
32.4 105
32.68 102
32.96 108
33.24 88
33.52 106
33.8 97
34.08 71
34.36 67
34.64 64
34.92 74
35.2 62
35.48 75
35.76 77
36.04 72
36.32 53
36.6 71
36.88 71
37.16 58
37.44 73
37.72 59
38 71
38.28 50
38.56 65
38.84 58
39.12 57
39.4 57
39.68 59
39.96 45
40.24 72
40.52 53
40.8 54
41.08 51
41.36 47
41.64 47
41.92 70
42.2 61
42.48 58
42.76 59
43.04 40
43.32 44
43.6 52
43.88 48
44.16 58
44.44 52
44.72 42
45 52
45.28 40
45.56 45
45.84 40
46.12 46
46.4 38
46.68 59
46.96 40
47.24 47
47.52 45
47.8 44
48.08 33
48.36 33
48.64 39
48.92 40
49.2 30
49.48 35
49.76 38
50.04 43
50.32 29
50.6 37
50.88 35
51.16 37
51.44 30
51.72 35
52 35
52.28 42
52.56 40
52.84 35
53.12 41
53.4 37
53.68 35
53.96 45
54.24 32
54.52 35
54.8 33
55.08 36
55.36 34
55.64 37
55.92 20
56.2 31
56.48 44
56.76 31
57.04 25
57.32 39
57.6 31
57.88 24
58.16 35
58.44 34
58.72 29
59 28
59.28 37
59.56 38
59.84 27
60.12 34
60.4 36
60.68 39
60.96 37
61.24 28
61.52 44
61.8 30
62.08 39
62.36 38
62.64 22
62.92 46
63.2 36
63.48 41
63.76 48
64.04 40
64.32 50
64.6 34
64.88 43
65.16 57
65.44 50
65.72 46
66 71
66.28 81
66.56 97
66.84 100
67.12 115
67.4 128
67.68 163
67.96 159
68.24 206
68.52 202
68.8 320
69.08 4531
69.36 663
69.64 255
69.92 194
70.2 177
70.48 157
70.76 144
71.04 114
71.32 107
71.6 99
71.88 89
72.16 60
72.44 72
72.72 67
73 54
73.28 35
73.56 36
73.84 41
74.12 47
74.4 38
74.68 41
74.96 37
75.24 31
75.52 32
75.8 30
76.08 30
76.36 29
76.64 33
76.92 17
77.2 26
77.48 24
77.76 17
78.04 22
78.32 17
78.6 27
78.88 14
79.16 18
79.44 16
79.72 8
80 16
80.28 20
80.56 16
80.84 18
81.12 23
81.4 21
81.68 10
81.96 16
82.24 16
82.52 15
82.8 24
83.08 22
83.36 12
83.64 18
83.92 13
84.2 12
84.48 15
84.76 17
85.04 18
85.32 14
85.6 13
85.88 16
86.16 17
86.44 20
86.72 20
87 12
87.28 13
87.56 13
87.84 17
88.12 13
88.4 15
88.68 11
88.96 10
89.24 11
89.52 10
89.8 19
90 9

File: Si_wefer2_20190122.TXT
Sample Si_wefer-2
Comments rapid
Filename C:\Windmax\Data\shimano\XRD20190306\Si_wefer2_20190122.raw
Goniometer TTRáV êÖïΩ∫ﬁ∆µ“∞¿(Tsé≤éËìÆ,ADS)
Attachment ïWèÄééóøŒŸ¿ﬁ∞
Monochromater å≈íË”…∏€“∞¿
ScanningMode 2Theta/Theta
ScanningType Continuos Scanning
X-Ray 40kV/300mA
î≠éUΩÿØƒ 2/3Åã
î≠éUècêßå¿ΩÿØƒ 2mm
éUóêΩÿØƒ 2/3Åã
éÛåıΩÿØƒ 0.3mm
±Ø√»∞¿ äJï˙
”…∏€éÛåıΩÿØƒ 0.8mm
Start 10
Stop 90
Step 0.02
10 28
10.28 25
10.56 24
10.84 36
11.12 30
11.4 25
11.68 29
11.96 22
12.24 27
12.52 28
12.8 18
13.08 31
13.36 24
13.64 24
13.92 33
14.2 16
14.48 18
14.76 20
15.04 23
15.32 33
15.6 19
15.88 23
16.16 23
16.44 19
16.72 23
17 28
17.28 30
17.56 20
17.84 21
18.12 22
18.4 23
18.68 20
18.96 26
19.24 34
19.52 18
19.8 29
20.08 19
20.36 27
20.64 26
20.92 15
21.2 27
21.48 23
21.76 21
22.04 25
22.32 23
22.6 27
22.88 20
23.16 30
23.44 23
23.72 22
24 29
24.28 29
24.56 22
24.84 31
25.12 18
25.4 20
25.68 22
25.96 26
26.24 19
26.52 29
26.8 33
27.08 24
27.36 27
27.64 18
27.92 20
28.2 23
28.48 24
28.76 22
29.04 25
29.32 25
29.6 26
29.88 27
30.16 23
30.44 18
30.72 37
31 23
31.28 29
31.56 29
31.84 27
32.12 18
32.4 24
32.68 16
32.96 25
33.24 26
33.52 26
33.8 20
34.08 28
34.36 31
34.64 21
34.92 18
35.2 18
35.48 16
35.76 21
36.04 25
36.32 26
36.6 19
36.88 15
37.16 22
37.44 20
37.72 19
38 24
38.28 17
38.56 12
38.84 24
39.12 21
39.4 17
39.68 16
39.96 19
40.24 21
40.52 17
40.8 21
41.08 25
41.36 22
41.64 14
41.92 16
42.2 12
42.48 28
42.76 13
43.04 28
43.32 14
43.6 19
43.88 18
44.16 17
44.44 19
44.72 18
45 12
45.28 16
45.56 18
45.84 22
46.12 22
46.4 18
46.68 14
46.96 14
47.24 15
47.52 15
47.8 11
48.08 18
48.36 15
48.64 14
48.92 17
49.2 15
49.48 15
49.76 10
50.04 15
50.32 19
50.6 14
50.88 18
51.16 18
51.44 19
51.72 14
52 9
52.28 19
52.56 9
52.84 19
53.12 13
53.4 12
53.68 11
53.96 16
54.24 15
54.52 15
54.8 10
55.08 17
55.36 13
55.64 18
55.92 19
56.2 13
56.48 10
56.76 14
57.04 10
57.32 12
57.6 15
57.88 18
58.16 13
58.44 14
58.72 19
59 17
59.28 9
59.56 11
59.84 11
60.12 14
60.4 17
60.68 13
60.96 16
61.24 18
61.52 11
61.8 15
62.08 21
62.36 10
62.64 13
62.92 27
63.2 21
63.48 17
63.76 11
64.04 14
64.32 19
64.6 23
64.88 22
65.16 17
65.44 24
65.72 32
66 22
66.28 26
66.56 22
66.84 28
67.12 28
67.4 38
67.68 35
67.96 47
68.24 65
68.52 65
68.8 96
69.08 1399
69.36 217
69.64 70
69.92 65
70.2 49
70.48 73
70.76 43
71.04 40
71.32 29
71.6 21
71.88 23
72.16 25
72.44 24
72.72 18
73 22
73.28 19
73.56 16
73.84 19
74.12 14
74.4 7
74.68 13
74.96 10
75.24 6
75.52 11
75.8 6
76.08 9
76.36 8
76.64 9
76.92 11
77.2 17
77.48 11
77.76 13
78.04 9
78.32 8
78.6 12
78.88 9
79.16 9
79.44 6
79.72 11
80 8
80.28 13
80.56 9
80.84 5
81.12 8
81.4 3
81.68 8
81.96 12
82.24 6
82.52 12
82.8 9
83.08 15
83.36 8
83.64 7
83.92 5
84.2 9
84.48 10
84.76 7
85.04 12
85.32 10
85.6 11
85.88 7
86.16 3
86.44 8
86.72 3
87 8
87.28 9
87.56 7
87.84 7
88.12 7
88.4 10
88.68 7
88.96 7
89.24 6
89.52 2
89.8 2
90 7

File: Si_wefer_20190122.TXT
Sample Si_wefer
Comments rapid
Filename C:\WINDMAX\DATA\SHIMANO\XRD20190306\Si_wefer_20190122.raw
Goniometer TTRáV êÖïΩ∫ﬁ∆µ“∞¿(Tsé≤éËìÆ,ADS)
Attachment ïWèÄééóøŒŸ¿ﬁ∞
Monochromater å≈íË”…∏€“∞¿
ScanningMode 2Theta/Theta
ScanningType Continuos Scanning
X-Ray 40kV/300mA
î≠éUΩÿØƒ 2/3Åã
î≠éUècêßå¿ΩÿØƒ 2mm
éUóêΩÿØƒ 2/3Åã
éÛåıΩÿØƒ 0.3mm
±Ø√»∞¿ äJï˙
”…∏€éÛåıΩÿØƒ 0.8mm
Start 10
Stop 90
Step 0.02
10 22
10.28 41
10.56 36
10.84 30
11.12 26
11.4 19
11.68 28
11.96 22
12.24 32
12.52 21
12.8 26
13.08 24
13.36 23
13.64 28
13.92 29
14.2 34
14.48 25
14.76 23
15.04 25
15.32 19
15.6 25
15.88 21
16.16 23
16.44 29
16.72 25
17 20
17.28 23
17.56 20
17.84 26
18.12 24
18.4 25
18.68 16
18.96 18
19.24 20
19.52 29
19.8 20
20.08 29
20.36 23
20.64 21
20.92 26
21.2 24
21.48 22
21.76 23
22.04 26
22.32 31
22.6 37
22.88 30
23.16 28
23.44 18
23.72 21
24 27
24.28 38
24.56 32
24.84 41
25.12 37
25.4 25
25.68 29
25.96 31
26.24 35
26.52 31
26.8 26
27.08 30
27.36 26
27.64 32
27.92 26
28.2 34
28.48 28
28.76 29
29.04 36
29.32 26
29.6 26
29.88 36
30.16 37
30.44 24
30.72 22
31 22
31.28 20
31.56 20
31.84 19
32.12 25
32.4 21
32.68 22
32.96 22
33.24 17
33.52 19
33.8 22
34.08 22
34.36 23
34.64 21
34.92 17
35.2 19
35.48 19
35.76 18
36.04 18
36.32 20
36.6 12
36.88 13
37.16 13
37.44 10
37.72 12
38 11
38.28 13
38.56 10
38.84 7
39.12 13
39.4 14
39.68 12
39.96 15
40.24 15
40.52 8
40.8 18
41.08 14
41.36 7
41.64 13
41.92 17
42.2 11
42.48 20
42.76 6
43.04 18
43.32 8
43.6 10
43.88 8
44.16 9
44.44 17
44.72 8
45 9
45.28 12
45.56 10
45.84 7
46.12 17
46.4 10
46.68 11
46.96 9
47.24 13
47.52 6
47.8 8
48.08 10
48.36 8
48.64 6
48.92 8
49.2 15
49.48 8
49.76 8
50.04 10
50.32 7
50.6 8
50.88 8
51.16 5
51.44 2
51.72 8
52 8
52.28 6
52.56 11
52.84 5
53.12 2
53.4 6
53.68 4
53.96 6
54.24 7
54.52 8
54.8 4
55.08 1
55.36 4
55.64 8
55.92 9
56.2 4
56.48 5
56.76 2
57.04 6
57.32 10
57.6 5
57.88 5
58.16 5
58.44 7
58.72 5
59 6
59.28 9
59.56 8
59.84 5
60.12 3
60.4 3
60.68 6
60.96 7
61.24 6
61.52 6
61.8 5
62.08 8
62.36 4
62.64 6
62.92 12
63.2 5
63.48 8
63.76 7
64.04 8
64.32 10
64.6 8
64.88 15
65.16 13
65.44 8
65.72 14
66 22
66.28 13
66.56 25
66.84 20
67.12 23
67.4 24
67.68 33
67.96 35
68.24 35
68.52 47
68.8 43
69.08 52
69.36 44
69.64 53
69.92 46
70.2 35
70.48 33
70.76 28
71.04 25
71.32 23
71.6 20
71.88 24
72.16 11
72.44 6
72.72 12
73 17
73.28 16
73.56 5
73.84 8
74.12 3
74.4 8
74.68 5
74.96 9
75.24 10
75.52 7
75.8 7
76.08 6
76.36 4
76.64 4
76.92 8
77.2 3
77.48 8
77.76 2
78.04 3
78.32 6
78.6 8
78.88 7
79.16 9
79.44 5
79.72 2
80 3
80.28 4
80.56 9
80.84 4
81.12 1
81.4 4
81.68 3
81.96 2
82.24 7
82.52 5
82.8 6
83.08 4
83.36 2
83.64 1
83.92 6
84.2 5
84.48 2
84.76 2
85.04 5
85.32 6
85.6 3
85.88 3
86.16 3
86.44 4
86.72 3
87 4
87.28 2
87.56 2
87.84 8
88.12 0
88.4 1
88.68 2
88.96 6
89.24 4
89.52 0
89.8 2
90 6

File: SnonGe-Kenma#2000-K2SnO3aq_20190122_mid.TXT
Sample SnonGe-å§ñÅÇ†ÇË-SnÇ
Comments medium
Filename C:\WINDMAX\DATA\SHIMANO\XRD20190306\SnonGe-Kenma#2000-K2SnO3aq_20190122_mid.raw
Goniometer TTRáV êÖïΩ∫ﬁ∆µ“∞¿(Tsé≤éËìÆ,ADS)
Attachment ïWèÄééóøŒŸ¿ﬁ∞
Monochromater å≈íË”…∏€“∞¿
ScanningMode 2Theta/Theta
ScanningType Continuos Scanning
X-Ray 40kV/300mA
î≠éUΩÿØƒ 2/3Åã
î≠éUècêßå¿ΩÿØƒ 10mm
éUóêΩÿØƒ 2/3Åã
éÛåıΩÿØƒ 0.3mm
±Ø√»∞¿ äJï˙
”…∏€éÛåıΩÿØƒ 0.8mm
Start 10
Stop 90
Step 0.02
10 138
10.28 123
10.56 140
10.84 126
11.12 136
11.4 132
11.68 109
11.96 138
12.24 124
12.52 116
12.8 145
13.08 134
13.36 120
13.64 119
13.92 134
14.2 147
14.48 133
14.76 142
15.04 139
15.32 114
15.6 135
15.88 114
16.16 141
16.44 137
16.72 137
17 128
17.28 136
17.56 125
17.84 145
18.12 136
18.4 118
18.68 143
18.96 185
19.24 160
19.52 165
19.8 170
20.08 131
20.36 168
20.64 162
20.92 188
21.2 210
21.48 235
21.76 192
22.04 223
22.32 220
22.6 252
22.88 220
23.16 225
23.44 196
23.72 199
24 207
24.28 206
24.56 198
24.84 212
25.12 185
25.4 221
25.68 216
25.96 209
26.24 193
26.52 214
26.8 220
27.08 189
27.36 220
27.64 224
27.92 180
28.2 196
28.48 229
28.76 214
29.04 199
29.32 214
29.6 201
29.88 183
30.16 201
30.44 181
30.72 192
31 180
31.28 177
31.56 174
31.84 152
32.12 182
32.4 160
32.68 167
32.96 162
33.24 132
33.52 157
33.8 142
34.08 167
34.36 153
34.64 118
34.92 145
35.2 142
35.48 130
35.76 115
36.04 105
36.32 124
36.6 126
36.88 120
37.16 105
37.44 111
37.72 107
38 108
38.28 101
38.56 112
38.84 91
39.12 105
39.4 96
39.68 97
39.96 101
40.24 90
40.52 95
40.8 82
41.08 102
41.36 93
41.64 109
41.92 97
42.2 105
42.48 95
42.76 97
43.04 95
43.32 87
43.6 100
43.88 86
44.16 99
44.44 88
44.72 96
45 89
45.28 85
45.56 88
45.84 95
46.12 88
46.4 90
46.68 100
46.96 106
47.24 91
47.52 80
47.8 98
48.08 67
48.36 85
48.64 85
48.92 72
49.2 82
49.48 81
49.76 88
50.04 78
50.32 93
50.6 87
50.88 87
51.16 77
51.44 88
51.72 80
52 79
52.28 67
52.56 81
52.84 85
53.12 89
53.4 65
53.68 92
53.96 84
54.24 74
54.52 61
54.8 78
55.08 77
55.36 79
55.64 75
55.92 60
56.2 78
56.48 80
56.76 89
57.04 69
57.32 83
57.6 79
57.88 84
58.16 79
58.44 89
58.72 84
59 70
59.28 87
59.56 82
59.84 57
60.12 64
60.4 81
60.68 79
60.96 70
61.24 76
61.52 72
61.8 78
62.08 78
62.36 81
62.64 75
62.92 72
63.2 62
63.48 76
63.76 102
64.04 70
64.32 75
64.6 74
64.88 69
65.16 78
65.44 81
65.72 71
66 78
66.28 74
66.56 84
66.84 60
67.12 62
67.4 57
67.68 65
67.96 67
68.24 51
68.52 74
68.8 70
69.08 64
69.36 67
69.64 75
69.92 68
70.2 72
70.48 60
70.76 61
71.04 67
71.32 74
71.6 65
71.88 70
72.16 48
72.44 65
72.72 50
73 53
73.28 66
73.56 66
73.84 72
74.12 69
74.4 57
74.68 58
74.96 59
75.24 67
75.52 58
75.8 60
76.08 52
76.36 40
76.64 57
76.92 58
77.2 69
77.48 63
77.76 59
78.04 43
78.32 54
78.6 44
78.88 59
79.16 64
79.44 73
79.72 49
80 63
80.28 49
80.56 50
80.84 40
81.12 53
81.4 40
81.68 61
81.96 39
82.24 56
82.52 34
82.8 49
83.08 63
83.36 46
83.64 53
83.92 52
84.2 53
84.48 49
84.76 43
85.04 46
85.32 52
85.6 41
85.88 43
86.16 42
86.44 51
86.72 44
87 30
87.28 49
87.56 49
87.84 36
88.12 39
88.4 50
88.68 48
88.96 45
89.24 47
89.52 42
89.8 46
90 50

File: SnonGe-No-Kenma-K2SnO3aq_20190122_mid.TXT
Sample SnonGe-å§ñÅÇ»Çµ-SnÇ
Comments medium
Filename C:\WINDMAX\DATA\SHIMANO\XRD20190306\SnonGe-No-Kenma-K2SnO3aq_20190122_mid.raw
Goniometer TTRáV êÖïΩ∫ﬁ∆µ“∞¿(Tsé≤éËìÆ,ADS)
Attachment ïWèÄééóøŒŸ¿ﬁ∞
Monochromater å≈íË”…∏€“∞¿
ScanningMode 2Theta/Theta
ScanningType Continuos Scanning
X-Ray 40kV/300mA
î≠éUΩÿØƒ 2/3Åã
î≠éUècêßå¿ΩÿØƒ 10mm
éUóêΩÿØƒ 2/3Åã
éÛåıΩÿØƒ 0.3mm
±Ø√»∞¿ äJï˙
”…∏€éÛåıΩÿØƒ 0.8mm
Start 10
Stop 90
Step 0.02
10 148
10.28 126
10.56 134
10.84 97
11.12 130
11.4 115
11.68 138
11.96 149
12.24 114
12.52 121
12.8 117
13.08 145
13.36 112
13.64 145
13.92 140
14.2 155
14.48 150
14.76 146
15.04 143
15.32 132
15.6 150
15.88 146
16.16 176
16.44 149
16.72 161
17 151
17.28 175
17.56 139
17.84 148
18.12 167
18.4 162
18.68 164
18.96 159
19.24 184
19.52 160
19.8 179
20.08 183
20.36 188
20.64 175
20.92 201
21.2 207
21.48 222
21.76 239
22.04 242
22.32 276
22.6 265
22.88 229
23.16 283
23.44 234
23.72 215
24 207
24.28 206
24.56 178
24.84 206
25.12 211
25.4 182
25.68 226
25.96 210
26.24 203
26.52 201
26.8 220
27.08 208
27.36 213
27.64 205
27.92 222
28.2 198
28.48 199
28.76 205
29.04 208
29.32 238
29.6 190
29.88 184
30.16 199
30.44 182
30.72 229
31 201
31.28 179
31.56 186
31.84 181
32.12 186
32.4 176
32.68 173
32.96 196
33.24 186
33.52 175
33.8 161
34.08 185
34.36 151
34.64 165
34.92 161
35.2 157
35.48 139
35.76 173
36.04 141
36.32 127
36.6 120
36.88 130
37.16 124
37.44 103
37.72 120
38 140
38.28 139
38.56 95
38.84 109
39.12 119
39.4 120
39.68 108
39.96 116
40.24 116
40.52 126
40.8 108
41.08 124
41.36 118
41.64 109
41.92 118
42.2 105
42.48 112
42.76 93
43.04 126
43.32 125
43.6 120
43.88 101
44.16 100
44.44 104
44.72 103
45 114
45.28 145
45.56 103
45.84 109
46.12 97
46.4 95
46.68 103
46.96 95
47.24 102
47.52 101
47.8 95
48.08 96
48.36 104
48.64 111
48.92 80
49.2 104
49.48 99
49.76 100
50.04 103
50.32 88
50.6 114
50.88 103
51.16 95
51.44 101
51.72 104
52 107
52.28 108
52.56 100
52.84 117
53.12 114
53.4 110
53.68 100
53.96 101
54.24 100
54.52 108
54.8 89
55.08 91
55.36 70
55.64 107
55.92 114
56.2 94
56.48 84
56.76 91
57.04 94
57.32 105
57.6 72
57.88 95
58.16 94
58.44 73
58.72 90
59 82
59.28 99
59.56 80
59.84 97
60.12 80
60.4 87
60.68 102
60.96 85
61.24 94
61.52 90
61.8 81
62.08 81
62.36 80
62.64 111
62.92 88
63.2 97
63.48 92
63.76 88
64.04 88
64.32 96
64.6 77
64.88 93
65.16 77
65.44 79
65.72 89
66 78
66.28 80
66.56 76
66.84 80
67.12 89
67.4 78
67.68 89
67.96 79
68.24 73
68.52 94
68.8 87
69.08 81
69.36 62
69.64 103
69.92 61
70.2 83
70.48 77
70.76 89
71.04 77
71.32 86
71.6 81
71.88 64
72.16 77
72.44 68
72.72 69
73 67
73.28 70
73.56 53
73.84 61
74.12 76
74.4 65
74.68 72
74.96 65
75.24 81
75.52 60
75.8 62
76.08 65
76.36 65
76.64 67
76.92 66
77.2 69
77.48 71
77.76 63
78.04 73
78.32 68
78.6 66
78.88 56
79.16 57
79.44 73
79.72 67
80 61
80.28 60
80.56 57
80.84 66
81.12 48
81.4 64
81.68 64
81.96 56
82.24 60
82.52 77
82.8 65
83.08 57
83.36 61
83.64 56
83.92 52
84.2 58
84.48 60
84.76 59
85.04 61
85.32 57
85.6 59
85.88 59
86.16 61
86.44 54
86.72 64
87 52
87.28 55
87.56 55
87.84 54
88.12 60
88.4 45
88.68 53
88.96 73
89.24 49
89.52 54
89.8 55
90 59