Folder: GitManagedProjects-Kagawalab/研究/Sn/Sn_X線/190306 (part 2)

File: SnonGe-No-Kenma-K2SnO3aq_20190122_std.TXT
Sample SnonGe-å§ñÅÇ»Çµ-SnÇ
Comments medium
Filename C:\WINDMAX\DATA\SHIMANO\XRD20190306\SnonGe-No-Kenma-K2SnO3aq_20190122_std.raw
Goniometer TTRáV êÖïΩ∫ﬁ∆µ“∞¿(Tsé≤éËìÆ,ADS)
Attachment ïWèÄééóøŒŸ¿ﬁ∞
Monochromater å≈íË”…∏€“∞¿
ScanningMode 2Theta/Theta
ScanningType Continuos Scanning
X-Ray 40kV/300mA
î≠éUΩÿØƒ 2/3Åã
î≠éUècêßå¿ΩÿØƒ 10mm
éUóêΩÿØƒ 2/3Åã
éÛåıΩÿØƒ 0.3mm
±Ø√»∞¿ äJï˙
”…∏€éÛåıΩÿØƒ 0.8mm
Start 10
Stop 50
Step 0.02
10 345
10.14 326
10.28 344
10.42 345
10.56 358
10.7 324
10.84 365
10.98 312
11.12 316
11.26 336
11.4 326
11.54 319
11.68 342
11.82 332
11.96 322
12.1 356
12.24 285
12.38 308
12.52 294
12.66 310
12.8 376
12.94 300
13.08 333
13.22 329
13.36 360
13.5 338
13.64 321
13.78 312
13.92 329
14.06 391
14.2 348
14.34 365
14.48 359
14.62 349
14.76 354
14.9 365
15.04 367
15.18 401
15.32 353
15.46 401
15.6 386
15.74 368
15.88 365
16.02 352
16.16 375
16.3 362
16.44 358
16.58 412
16.72 359
16.86 343
17 386
17.14 365
17.28 383
17.42 374
17.56 358
17.7 376
17.84 375
17.98 359
18.12 418
18.26 388
18.4 366
18.54 377
18.68 399
18.82 406
18.96 387
19.1 464
19.24 398
19.38 453
19.52 427
19.66 433
19.8 420
19.94 426
20.08 442
20.22 421
20.36 472
20.5 441
20.64 504
20.78 481
20.92 488
21.06 532
21.2 537
21.34 601
21.48 550
21.62 600
21.76 609
21.9 629
22.04 656
22.18 688
22.32 636
22.46 675
22.6 657
22.74 685
22.88 645
23.02 664
23.16 621
23.3 609
23.44 602
23.58 588
23.72 578
23.86 568
24 551
24.14 559
24.28 543
24.42 551
24.56 572
24.7 501
24.84 544
24.98 528
25.12 506
25.26 484
25.4 568
25.54 499
25.68 535
25.82 538
25.96 561
26.1 524
26.24 521
26.38 535
26.52 522
26.66 522
26.8 493
26.94 513
27.08 508
27.22 573
27.36 527
27.5 509
27.64 549
27.78 543
27.92 547
28.06 519
28.2 544
28.34 507
28.48 573
28.62 498
28.76 474
28.9 563
29.04 519
29.18 581
29.32 518
29.46 494
29.6 487
29.74 523
29.88 548
30.02 515
30.16 506
30.3 498
30.44 519
30.58 509
30.72 494
30.86 504
31 453
31.14 449
31.28 529
31.42 503
31.56 479
31.7 493
31.84 477
31.98 486
32.12 484
32.26 464
32.4 431
32.54 464
32.68 474
32.82 450
32.96 442
33.1 438
33.24 444
33.38 407
33.52 469
33.66 429
33.8 407
33.94 401
34.08 420
34.22 393
34.36 412
34.5 393
34.64 400
34.78 377
34.92 375
35.06 392
35.2 398
35.34 352
35.48 357
35.62 380
35.76 363
35.9 334
36.04 350
36.18 344
36.32 348
36.46 307
36.6 331
36.74 321
36.88 352
37.02 325
37.16 313
37.3 302
37.44 284
37.58 282
37.72 308
37.86 303
38 306
38.14 313
38.28 312
38.42 281
38.56 302
38.7 274
38.84 321
38.98 286
39.12 272
39.26 310
39.4 280
39.54 277
39.68 299
39.82 276
39.96 285
40.1 297
40.24 271
40.38 300
40.52 315
40.66 293
40.8 270
40.94 288
41.08 314
41.22 288
41.36 264
41.5 297
41.64 235
41.78 305
41.92 281
42.06 280
42.2 274
42.34 258
42.48 273
42.62 286
42.76 285
42.9 287
43.04 251
43.18 276
43.32 274
43.46 278
43.6 246
43.74 280
43.88 315
44.02 283
44.16 261
44.3 285
44.44 282
44.58 265
44.72 265
44.86 277
45 270
45.14 308
45.28 333
45.42 306
45.56 260
45.7 230
45.84 276
45.98 260
46.12 235
46.26 240
46.4 274
46.54 244
46.68 242
46.82 251
46.96 287
47.1 274
47.24 222
47.38 240
47.52 269
47.66 229
47.8 272
47.94 239
48.08 255
48.22 243
48.36 265
48.5 237
48.64 240
48.78 243
48.92 237
49.06 241
49.2 229
49.34 271
49.48 238
49.62 208
49.76 205
49.9 259
50 237

File: SnonSi-No-Kenma-K2SnO3aq_20190122_std2.TXT
Sample SnonSi-å§ñÅÇ»Çµ-SnÇ
Comments medium
Filename C:\WINDMAX\DATA\SHIMANO\XRD20190306\SnonSi-No-Kenma-K2SnO3aq_20190122_std2.raw
Goniometer TTRáV êÖïΩ∫ﬁ∆µ“∞¿(Tsé≤éËìÆ,ADS)
Attachment ïWèÄééóøŒŸ¿ﬁ∞
Monochromater å≈íË”…∏€“∞¿
ScanningMode 2Theta/Theta
ScanningType Continuos Scanning
X-Ray 40kV/300mA
î≠éUΩÿØƒ 2/3Åã
î≠éUècêßå¿ΩÿØƒ 10mm
éUóêΩÿØƒ 2/3Åã
éÛåıΩÿØƒ 0.3mm
±Ø√»∞¿ äJï˙
”…∏€éÛåıΩÿØƒ 0.8mm
Start 10
Stop 50
Step 0.02
10 285
10.14 332
10.28 322
10.42 333
10.56 335
10.7 302
10.84 319
10.98 322
11.12 314
11.26 315
11.4 310
11.54 289
11.68 284
11.82 310
11.96 304
12.1 304
12.24 302
12.38 328
12.52 320
12.66 313
12.8 300
12.94 291
13.08 286
13.22 308
13.36 286
13.5 297
13.64 287
13.78 280
13.92 329
14.06 300
14.2 305
14.34 304
14.48 326
14.62 313
14.76 347
14.9 278
15.04 302
15.18 306
15.32 312
15.46 347
15.6 314
15.74 323
15.88 297
16.02 317
16.16 331
16.3 328
16.44 335
16.58 282
16.72 325
16.86 318
17 341
17.14 324
17.28 324
17.42 328
17.56 326
17.7 337
17.84 309
17.98 338
18.12 334
18.26 342
18.4 365
18.54 337
18.68 381
18.82 382
18.96 371
19.1 382
19.24 411
19.38 410
19.52 433
19.66 378
19.8 409
19.94 392
20.08 389
20.22 417
20.36 434
20.5 461
20.64 449
20.78 423
20.92 469
21.06 447
21.2 482
21.34 473
21.48 467
21.62 532
21.76 487
21.9 490
22.04 546
22.18 565
22.32 530
22.46 552
22.6 526
22.74 563
22.88 525
23.02 488
23.16 562
23.3 505
23.44 530
23.58 534
23.72 534
23.86 512
24 555
24.14 521
24.28 502
24.42 499
24.56 545
24.7 514
24.84 552
24.98 581
25.12 588
25.26 540
25.4 517
25.54 548
25.68 551
25.82 531
25.96 487
26.1 532
26.24 538
26.38 506
26.52 539
26.66 523
26.8 498
26.94 533
27.08 514
27.22 524
27.36 500
27.5 531
27.64 570
27.78 491
27.92 530
28.06 524
28.2 519
28.34 546
28.48 501
28.62 508
28.76 527
28.9 489
29.04 498
29.18 473
29.32 478
29.46 500
29.6 518
29.74 466
29.88 491
30.02 457
30.16 460
30.3 430
30.44 480
30.58 443
30.72 467
30.86 438
31 446
31.14 443
31.28 439
31.42 425
31.56 434
31.7 408
31.84 431
31.98 437
32.12 402
32.26 374
32.4 390
32.54 413
32.68 359
32.82 366
32.96 362
33.1 369
33.24 355
33.38 355
33.52 359
33.66 348
33.8 335
33.94 323
34.08 329
34.22 325
34.36 320
34.5 314
34.64 336
34.78 297
34.92 327
35.06 312
35.2 305
35.34 278
35.48 271
35.62 291
35.76 283
35.9 292
36.04 280
36.18 285
36.32 276
36.46 264
36.6 290
36.74 242
36.88 249
37.02 251
37.16 249
37.3 253
37.44 281
37.58 265
37.72 233
37.86 258
38 233
38.14 267
38.28 217
38.42 220
38.56 247
38.7 204
38.84 213
38.98 249
39.12 228
39.26 231
39.4 231
39.54 264
39.68 243
39.82 245
39.96 215
40.1 233
40.24 229
40.38 195
40.52 218
40.66 226
40.8 205
40.94 228
41.08 225
41.22 252
41.36 215
41.5 212
41.64 214
41.78 219
41.92 227
42.06 217
42.2 196
42.34 206
42.48 218
42.62 223
42.76 227
42.9 219
43.04 242
43.18 224
43.32 207
43.46 214
43.6 214
43.74 218
43.88 215
44.02 227
44.16 221
44.3 232
44.44 198
44.58 215
44.72 208
44.86 207
45 191
45.14 192
45.28 207
45.42 210
45.56 203
45.7 200
45.84 219
45.98 226
46.12 194
46.26 212
46.4 217
46.54 190
46.68 191
46.82 207
46.96 199
47.1 213
47.24 188
47.38 186
47.52 188
47.66 191
47.8 196
47.94 180
48.08 171
48.22 169
48.36 181
48.5 173
48.64 157
48.78 176
48.92 157
49.06 181
49.2 182
49.34 175
49.48 199
49.62 167
49.76 199
49.9 165
50 206

File: SnonSi-No-Kenma-K2SnO3aq_20190122_std.TXT
Sample SnonSi-å§ñÅÇ»Çµ-SnÇ
Comments medium
Filename C:\WINDMAX\DATA\SHIMANO\XRD20190306\SnonSi-No-Kenma-K2SnO3aq_20190122_std.raw
Goniometer TTRáV êÖïΩ∫ﬁ∆µ“∞¿(Tsé≤éËìÆ,ADS)
Attachment ïWèÄééóøŒŸ¿ﬁ∞
Monochromater å≈íË”…∏€“∞¿
ScanningMode 2Theta/Theta
ScanningType Continuos Scanning
X-Ray 40kV/300mA
î≠éUΩÿØƒ 2/3Åã
î≠éUècêßå¿ΩÿØƒ 10mm
éUóêΩÿØƒ 2/3Åã
éÛåıΩÿØƒ 0.3mm
±Ø√»∞¿ äJï˙
”…∏€éÛåıΩÿØƒ 0.8mm
Start 10
Stop 32.76
Step 0.02
10 330
10.08 299
10.16 326
10.24 336
10.32 304
10.4 339
10.48 295
10.56 312
10.64 324
10.72 302
10.8 308
10.88 329
10.96 310
11.04 325
11.12 356
11.2 318
11.28 311
11.36 318
11.44 291
11.52 293
11.6 298
11.68 285
11.76 309
11.84 294
11.92 308
12 293
12.08 334
12.16 299
12.24 277
12.32 309
12.4 281
12.48 292
12.56 279
12.64 293
12.72 274
12.8 315
12.88 288
12.96 253
13.04 291
13.12 311
13.2 278
13.28 289
13.36 283
13.44 299
13.52 258
13.6 292
13.68 277
13.76 287
13.84 299
13.92 304
14 288
14.08 291
14.16 306
14.24 253
14.32 302
14.4 291
14.48 301
14.56 305
14.64 284
14.72 306
14.8 303
14.88 319
14.96 274
15.04 302
15.12 284
15.2 298
15.28 297
15.36 314
15.44 276
15.52 288
15.6 277
15.68 301
15.76 327
15.84 280
15.92 287
16 313
16.08 281
16.16 280
16.24 290
16.32 310
16.4 310
16.48 316
16.56 291
16.64 264
16.72 323
16.8 283
16.88 323
16.96 317
17.04 347
17.12 324
17.2 349
17.28 334
17.36 306
17.44 336
17.52 358
17.6 355
17.68 338
17.76 339
17.84 321
17.92 301
18 373
18.08 329
18.16 365
18.24 368
18.32 369
18.4 362
18.48 326
18.56 337
18.64 381
18.72 392
18.8 370
18.88 348
18.96 361
19.04 362
19.12 378
19.2 375
19.28 360
19.36 409
19.44 376
19.52 398
19.6 404
19.68 395
19.76 345
19.84 398
19.92 381
20 393
20.08 363
20.16 413
20.24 414
20.32 414
20.4 409
20.48 372
20.56 438
20.64 457
20.72 415
20.8 409
20.88 429
20.96 459
21.04 419
21.12 443
21.2 440
21.28 479
21.36 454
21.44 455
21.52 461
21.6 467
21.68 494
21.76 480
21.84 492
21.92 445
22 524
22.08 491
22.16 515
22.24 499
22.32 540
22.4 493
22.48 480
22.56 494
22.64 559
22.72 509
22.8 506
22.88 512
22.96 498
23.04 530
23.12 527
23.2 495
23.28 534
23.36 496
23.44 494
23.52 497
23.6 526
23.68 490
23.76 483
23.84 494
23.92 462
24 521
24.08 508
24.16 513
24.24 502
24.32 492
24.4 463
24.48 442
24.56 483
24.64 511
24.72 493
24.8 475
24.88 508
24.96 530
25.04 505
25.12 502
25.2 495
25.28 535
25.36 506
25.44 506
25.52 503
25.6 492
25.68 499
25.76 515
25.84 480
25.92 496
26 515
26.08 494
26.16 535
26.24 505
26.32 478
26.4 481
26.48 510
26.56 510
26.64 511
26.72 523
26.8 503
26.88 529
26.96 545
27.04 536
27.12 522
27.2 484
27.28 478
27.36 464
27.44 530
27.52 489
27.6 528
27.68 553
27.76 499
27.84 534
27.92 547
28 518
28.08 520
28.16 526
28.24 503
28.32 494
28.4 493
28.48 490
28.56 524
28.64 464
28.72 538
28.8 548
28.88 459
28.96 520
29.04 494
29.12 529
29.2 504
29.28 462
29.36 516
29.44 517
29.52 513
29.6 496
29.68 498
29.76 474
29.84 517
29.92 501
30 484
30.08 486
30.16 455
30.24 516
30.32 516
30.4 498
30.48 470
30.56 492
30.64 487
30.72 471
30.8 508
30.88 523
30.96 497
31.04 482
31.12 476
31.2 507
31.28 451
31.36 443
31.44 473
31.52 474
31.6 469
31.68 447
31.76 465
31.84 485
31.92 462
32 452
32.08 440
32.16 433
32.24 418
32.32 452
32.4 420
32.48 399
32.56 439
32.64 472
32.72 455
32.76 417

File: SnonSi_Kenma#2000_K2SnO3aq_20190122.TXT
Sample SnonSi_å§ñÅÇ†ÇË_SnÇ
Comments rapid
Filename C:\WINDMAX\DATA\SHIMANO\XRD20190306\SnonSi_Kenma#2000_K2SnO3aq_20190122.raw
Goniometer TTRáV êÖïΩ∫ﬁ∆µ“∞¿(Tsé≤éËìÆ,ADS)
Attachment ïWèÄééóøŒŸ¿ﬁ∞
Monochromater å≈íË”…∏€“∞¿
ScanningMode 2Theta/Theta
ScanningType Continuos Scanning
X-Ray 40kV/300mA
î≠éUΩÿØƒ 2/3Åã
î≠éUècêßå¿ΩÿØƒ 2mm
éUóêΩÿØƒ 2/3Åã
éÛåıΩÿØƒ 0.3mm
±Ø√»∞¿ äJï˙
”…∏€éÛåıΩÿØƒ 0.8mm
Start 10
Stop 90
Step 0.02
10 36
10.28 42
10.56 51
10.84 47
11.12 37
11.4 37
11.68 37
11.96 35
12.24 28
12.52 33
12.8 34
13.08 40
13.36 46
13.64 43
13.92 44
14.2 32
14.48 53
14.76 50
15.04 52
15.32 49
15.6 57
15.88 46
16.16 45
16.44 59
16.72 49
17 51
17.28 53
17.56 54
17.84 48
18.12 67
18.4 61
18.68 51
18.96 49
19.24 58
19.52 50
19.8 70
20.08 55
20.36 61
20.64 87
20.92 67
21.2 65
21.48 74
21.76 97
22.04 66
22.32 84
22.6 94
22.88 105
23.16 88
23.44 90
23.72 84
24 75
24.28 67
24.56 64
24.84 67
25.12 81
25.4 67
25.68 73
25.96 73
26.24 76
26.52 69
26.8 71
27.08 65
27.36 90
27.64 66
27.92 72
28.2 60
28.48 69
28.76 70
29.04 60
29.32 60
29.6 66
29.88 62
30.16 55
30.44 63
30.72 76
31 68
31.28 54
31.56 57
31.84 73
32.12 49
32.4 62
32.68 66
32.96 50
33.24 52
33.52 49
33.8 37
34.08 49
34.36 49
34.64 36
34.92 43
35.2 45
35.48 47
35.76 42
36.04 37
36.32 36
36.6 33
36.88 40
37.16 29
37.44 45
37.72 35
38 34
38.28 28
38.56 38
38.84 24
39.12 35
39.4 29
39.68 33
39.96 29
40.24 29
40.52 31
40.8 32
41.08 44
41.36 30
41.64 27
41.92 39
42.2 24
42.48 27
42.76 25
43.04 30
43.32 31
43.6 21
43.88 23
44.16 38
44.44 31
44.72 28
45 29
45.28 31
45.56 34
45.84 26
46.12 31
46.4 27
46.68 25
46.96 36
47.24 36
47.52 29
47.8 24
48.08 28
48.36 22
48.64 24
48.92 25
49.2 22
49.48 32
49.76 28
50.04 19
50.32 26
50.6 26
50.88 20
51.16 29
51.44 22
51.72 28
52 11
52.28 15
52.56 19
52.84 27
53.12 20
53.4 23
53.68 21
53.96 20
54.24 15
54.52 17
54.8 17
55.08 21
55.36 24
55.64 27
55.92 20
56.2 21
56.48 16
56.76 28
57.04 22
57.32 23
57.6 25
57.88 32
58.16 31
58.44 23
58.72 13
59 31
59.28 20
59.56 26
59.84 33
60.12 19
60.4 25
60.68 21
60.96 16
61.24 23
61.52 25
61.8 28
62.08 22
62.36 14
62.64 36
62.92 24
63.2 16
63.48 25
63.76 43
64.04 25
64.32 17
64.6 26
64.88 16
65.16 24
65.44 22
65.72 29
66 31
66.28 28
66.56 23
66.84 27
67.12 31
67.4 36
67.68 42
67.96 87
68.24 148
68.52 293
68.8 1401
69.08 0
69.36 18750
69.64 850
69.92 421
70.2 304
70.48 220
70.76 146
71.04 105
71.32 69
71.6 47
71.88 26
72.16 21
72.44 29
72.72 26
73 17
73.28 28
73.56 18
73.84 17
74.12 32
74.4 14
74.68 19
74.96 24
75.24 13
75.52 15
75.8 16
76.08 15
76.36 16
76.64 20
76.92 19
77.2 15
77.48 22
77.76 17
78.04 20
78.32 9
78.6 19
78.88 12
79.16 19
79.44 6
79.72 15
80 20
80.28 14
80.56 18
80.84 11
81.12 13
81.4 16
81.68 10
81.96 9
82.24 12
82.52 19
82.8 15
83.08 18
83.36 14
83.64 12
83.92 19
84.2 11
84.48 11
84.76 13
85.04 11
85.32 16
85.6 11
85.88 12
86.16 11
86.44 18
86.72 14
87 13
87.28 15
87.56 12
87.84 10
88.12 10
88.4 15
88.68 18
88.96 9
89.24 6
89.52 9
89.8 8
90 9

File: SnonSi_Kenma#2000_K2SnO3aq_20190122_mid.TXT
Sample SnonSi_å§ñÅÇ†ÇË_SnÇ
Comments medium
Filename C:\WINDMAX\DATA\SHIMANO\XRD20190306\SnonSi_Kenma#2000_K2SnO3aq_20190122_mid.raw
Goniometer TTRáV êÖïΩ∫ﬁ∆µ“∞¿(Tsé≤éËìÆ,ADS)
Attachment ïWèÄééóøŒŸ¿ﬁ∞
Monochromater å≈íË”…∏€“∞¿
ScanningMode 2Theta/Theta
ScanningType Continuos Scanning
X-Ray 40kV/300mA
î≠éUΩÿØƒ 2/3Åã
î≠éUècêßå¿ΩÿØƒ 10mm
éUóêΩÿØƒ 2/3Åã
éÛåıΩÿØƒ 0.3mm
±Ø√»∞¿ äJï˙
”…∏€éÛåıΩÿØƒ 0.8mm
Start 10
Stop 90
Step 0.02
10 168
10.28 147
10.56 155
10.84 157
11.12 161
11.4 154
11.68 158
11.96 134
12.24 163
12.52 132
12.8 166
13.08 161
13.36 147
13.64 161
13.92 161
14.2 163
14.48 172
14.76 188
15.04 185
15.32 164
15.6 174
15.88 180
16.16 187
16.44 181
16.72 184
17 189
17.28 191
17.56 196
17.84 191
18.12 211
18.4 174
18.68 218
18.96 223
19.24 215
19.52 238
19.8 244
20.08 254
20.36 239
20.64 269
20.92 239
21.2 281
21.48 326
21.76 340
22.04 358
22.32 358
22.6 378
22.88 347
23.16 323
23.44 313
23.72 295
24 258
24.28 264
24.56 277
24.84 284
25.12 251
25.4 259
25.68 274
25.96 265
26.24 246
26.52 247
26.8 246
27.08 266
27.36 234
27.64 263
27.92 261
28.2 237
28.48 244
28.76 254
29.04 263
29.32 250
29.6 238
29.88 242
30.16 248
30.44 224
30.72 336
31 235
31.28 205
31.56 242
31.84 219
32.12 212
32.4 205
32.68 233
32.96 212
33.24 163
33.52 180
33.8 198
34.08 187
34.36 176
34.64 159
34.92 169
35.2 169
35.48 169
35.76 176
36.04 147
36.32 135
36.6 152
36.88 146
37.16 148
37.44 111
37.72 128
38 142
38.28 135
38.56 146
38.84 119
39.12 148
39.4 136
39.68 121
39.96 143
40.24 128
40.52 136
40.8 125
41.08 136
41.36 128
41.64 140
41.92 117
42.2 134
42.48 115
42.76 141
43.04 136
43.32 135
43.6 137
43.88 148
44.16 126
44.44 114
44.72 119
45 139
45.28 106
45.56 119
45.84 107
46.12 125
46.4 105
46.68 109
46.96 113
47.24 113
47.52 117
47.8 104
48.08 109
48.36 115
48.64 106
48.92 94
49.2 110
49.48 88
49.76 96
50.04 89
50.32 79
50.6 119
50.88 117
51.16 88
51.44 83
51.72 91
52 111
52.28 96
52.56 98
52.84 109
53.12 88
53.4 93
53.68 92
53.96 120
54.24 98
54.52 89
54.8 95
55.08 94
55.36 100
55.64 102
55.92 86
56.2 106
56.48 95
56.76 106
57.04 86
57.32 91
57.6 94
57.88 88
58.16 73
58.44 82
58.72 98
59 94
59.28 89
59.56 112
59.84 95
60.12 90
60.4 93
60.68 84
60.96 93
61.24 100
61.52 98
61.8 101
62.08 78
62.36 86
62.64 108
62.92 102
63.2 101
63.48 78
63.76 116
64.04 101
64.32 95
64.6 98
64.88 87
65.16 99
65.44 97
65.72 99
66 85
66.28 117
66.56 108
66.84 119
67.12 141
67.4 161
67.68 176
67.96 265
68.24 490
68.52 1001
68.8 3896
69.08 0
69.36 29608
69.64 2291
69.92 1081
70.2 729
70.48 543
70.76 370
71.04 300
71.32 205
71.6 154
71.88 126
72.16 117
72.44 105
72.72 97
73 92
73.28 90
73.56 76
73.84 82
74.12 85
74.4 77
74.68 78
74.96 80
75.24 75
75.52 69
75.8 75
76.08 67
76.36 72
76.64 65
76.92 60
77.2 72
77.48 65
77.76 69
78.04 62
78.32 63
78.6 58
78.88 76
79.16 58
79.44 63
79.72 62
80 57
80.28 63
80.56 51
80.84 73
81.12 56
81.4 61
81.68 56
81.96 68
82.24 58
82.52 61
82.8 60
83.08 59
83.36 55
83.64 53
83.92 51
84.2 62
84.48 46
84.76 54
85.04 63
85.32 50
85.6 55
85.88 42
86.16 61
86.44 58
86.72 44
87 52
87.28 41
87.56 53
87.84 38
88.12 68
88.4 61
88.68 47
88.96 49
89.24 56
89.52 47
89.8 43
90 55

File: SnonSi_No-Kenma_K2SnO3aq_20190122.TXT
Sample SnonSi_å§ñÅÇ»Çµ_SnÇ
Comments rapid
Filename C:\WINDMAX\DATA\SHIMANO\XRD20190306\SnonSi_No-Kenma_K2SnO3aq_20190122.raw
Goniometer TTRáV êÖïΩ∫ﬁ∆µ“∞¿(Tsé≤éËìÆ,ADS)
Attachment ïWèÄééóøŒŸ¿ﬁ∞
Monochromater å≈íË”…∏€“∞¿
ScanningMode 2Theta/Theta
ScanningType Continuos Scanning
X-Ray 40kV/300mA
î≠éUΩÿØƒ 2/3Åã
î≠éUècêßå¿ΩÿØƒ 2mm
éUóêΩÿØƒ 2/3Åã
éÛåıΩÿØƒ 0.3mm
±Ø√»∞¿ äJï˙
”…∏€éÛåıΩÿØƒ 0.8mm
Start 10
Stop 90
Step 0.02
10 24
10.28 33
10.56 30
10.84 31
11.12 47
11.4 35
11.68 28
11.96 24
12.24 27
12.52 31
12.8 29
13.08 22
13.36 24
13.64 35
13.92 41
14.2 33
14.48 24
14.76 32
15.04 29
15.32 34
15.6 41
15.88 29
16.16 41
16.44 26
16.72 36
17 29
17.28 34
17.56 44
17.84 28
18.12 38
18.4 46
18.68 37
18.96 33
19.24 49
19.52 38
19.8 35
20.08 49
20.36 45
20.64 39
20.92 36
21.2 53
21.48 45
21.76 56
22.04 67
22.32 54
22.6 63
22.88 37
23.16 45
23.44 38
23.72 47
24 53
24.28 57
24.56 40
24.84 39
25.12 37
25.4 40
25.68 39
25.96 38
26.24 40
26.52 38
26.8 43
27.08 35
27.36 36
27.64 48
27.92 43
28.2 44
28.48 36
28.76 39
29.04 33
29.32 46
29.6 53
29.88 39
30.16 32
30.44 47
30.72 37
31 34
31.28 37
31.56 51
31.84 38
32.12 37
32.4 36
32.68 32
32.96 42
33.24 36
33.52 36
33.8 42
34.08 31
34.36 43
34.64 33
34.92 28
35.2 27
35.48 29
35.76 26
36.04 27
36.32 33
36.6 38
36.88 29
37.16 24
37.44 26
37.72 20
38 24
38.28 30
38.56 27
38.84 36
39.12 21
39.4 23
39.68 30
39.96 27
40.24 26
40.52 24
40.8 31
41.08 31
41.36 28
41.64 24
41.92 25
42.2 32
42.48 18
42.76 25
43.04 19
43.32 30
43.6 25
43.88 22
44.16 20
44.44 16
44.72 34
45 35
45.28 20
45.56 25
45.84 20
46.12 22
46.4 17
46.68 25
46.96 28
47.24 25
47.52 33
47.8 25
48.08 23
48.36 23
48.64 23
48.92 13
49.2 20
49.48 21
49.76 21
50.04 22
50.32 15
50.6 25
50.88 18
51.16 17
51.44 15
51.72 20
52 22
52.28 23
52.56 12
52.84 26
53.12 18
53.4 23
53.68 18
53.96 19
54.24 20
54.52 18
54.8 17
55.08 15
55.36 17
55.64 19
55.92 22
56.2 21
56.48 10
56.76 17
57.04 14
57.32 21
57.6 15
57.88 24
58.16 17
58.44 9
58.72 20
59 22
59.28 11
59.56 21
59.84 13
60.12 23
60.4 12
60.68 14
60.96 18
61.24 12
61.52 23
61.8 20
62.08 17
62.36 20
62.64 11
62.92 20
63.2 18
63.48 14
63.76 14
64.04 21
64.32 25
64.6 22
64.88 20
65.16 17
65.44 17
65.72 26
66 20
66.28 25
66.56 22
66.84 26
67.12 23
67.4 35
67.68 65
67.96 123
68.24 236
68.52 514
68.8 1989
69.08 0
69.36 7704
69.64 1058
69.92 522
70.2 365
70.48 263
70.76 205
71.04 143
71.32 86
71.6 48
71.88 42
72.16 28
72.44 27
72.72 28
73 7
73.28 19
73.56 21
73.84 22
74.12 16
74.4 8
74.68 17
74.96 14
75.24 22
75.52 16
75.8 17
76.08 12
76.36 19
76.64 13
76.92 16
77.2 16
77.48 11
77.76 12
78.04 17
78.32 11
78.6 11
78.88 8
79.16 11
79.44 12
79.72 16
80 11
80.28 11
80.56 14
80.84 7
81.12 17
81.4 7
81.68 10
81.96 11
82.24 12
82.52 8
82.8 14
83.08 8
83.36 6
83.64 15
83.92 8
84.2 6
84.48 10
84.76 15
85.04 8
85.32 11
85.6 6
85.88 9
86.16 10
86.44 10
86.72 6
87 7
87.28 6
87.56 8
87.84 10
88.12 7
88.4 12
88.68 11
88.96 11
89.24 8
89.52 12
89.8 9
90 8

File: SnonSi_No-Kenma_K2SnO3aq_20190122_mid.TXT
Sample SnonSi_å§ñÅÇ»Çµ_SnÇ
Comments medium
Filename C:\WINDMAX\DATA\SHIMANO\XRD20190306\SnonSi_No-Kenma_K2SnO3aq_20190122_mid.raw
Goniometer TTRáV êÖïΩ∫ﬁ∆µ“∞¿(Tsé≤éËìÆ,ADS)
Attachment ïWèÄééóøŒŸ¿ﬁ∞
Monochromater å≈íË”…∏€“∞¿
ScanningMode 2Theta/Theta
ScanningType Continuos Scanning
X-Ray 40kV/300mA
î≠éUΩÿØƒ 2/3Åã
î≠éUècêßå¿ΩÿØƒ 10mm
éUóêΩÿØƒ 2/3Åã
éÛåıΩÿØƒ 0.3mm
±Ø√»∞¿ äJï˙
”…∏€éÛåıΩÿØƒ 0.8mm
Start 10
Stop 90
Step 0.02
10 142
10.28 137
10.56 146
10.84 128
11.12 122
11.4 118
11.68 160
11.96 114
12.24 117
12.52 104
12.8 104
13.08 129
13.36 120
13.64 131
13.92 118
14.2 122
14.48 149
14.76 130
15.04 154
15.32 153
15.6 141
15.88 146
16.16 134
16.44 127
16.72 134
17 135
17.28 122
17.56 149
17.84 150
18.12 131
18.4 154
18.68 138
18.96 147
19.24 148
19.52 154
19.8 157
20.08 147
20.36 160
20.64 167
20.92 163
21.2 206
21.48 180
21.76 201
22.04 205
22.32 233
22.6 220
22.88 226
23.16 204
23.44 187
23.72 193
24 197
24.28 173
24.56 199
24.84 167
25.12 188
25.4 177
25.68 151
25.96 177
26.24 164
26.52 181
26.8 184
27.08 172
27.36 166
27.64 179
27.92 179
28.2 184
28.48 160
28.76 163
29.04 166
29.32 184
29.6 164
29.88 183
30.16 155
30.44 151
30.72 168
31 178
31.28 164
31.56 170
31.84 162
32.12 168
32.4 154
32.68 153
32.96 165
33.24 150
33.52 156
33.8 157
34.08 154
34.36 162
34.64 147
34.92 100
35.2 131
35.48 117
35.76 131
36.04 102
36.32 117
36.6 119
36.88 96
37.16 93
37.44 128
37.72 115
38 100
38.28 104
38.56 86
38.84 102
39.12 103
39.4 98
39.68 97
39.96 114
40.24 102
40.52 104
40.8 91
41.08 101
41.36 99
41.64 112
41.92 94
42.2 100
42.48 87
42.76 104
43.04 99
43.32 104
43.6 84
43.88 102
44.16 85
44.44 90
44.72 100
45 95
45.28 102
45.56 93
45.84 82
46.12 81
46.4 76
46.68 83
46.96 87
47.24 77
47.52 94
47.8 80
48.08 94
48.36 80
48.64 91
48.92 82
49.2 70
49.48 83
49.76 91
50.04 69
50.32 81
50.6 78
50.88 70
51.16 85
51.44 88
51.72 70
52 68
52.28 83
52.56 73
52.84 75
53.12 80
53.4 59
53.68 68
53.96 74
54.24 86
54.52 74
54.8 77
55.08 83
55.36 65
55.64 61
55.92 82
56.2 77
56.48 73
56.76 76
57.04 87
57.32 85
57.6 78
57.88 76
58.16 77
58.44 65
58.72 75
59 86
59.28 87
59.56 67
59.84 59
60.12 57
60.4 71
60.68 77
60.96 77
61.24 75
61.52 69
61.8 90
62.08 75
62.36 85
62.64 82
62.92 80
63.2 81
63.48 77
63.76 85
64.04 75
64.32 80
64.6 76
64.88 87
65.16 83
65.44 81
65.72 99
66 91
66.28 110
66.56 135
66.84 118
67.12 142
67.4 172
67.68 280
67.96 502
68.24 984
68.52 2120
68.8 8321
69.08 0
69.36 27908
69.64 4256
69.92 2172
70.2 1548
70.48 1072
70.76 744
71.04 498
71.32 322
71.6 219
71.88 162
72.16 123
72.44 101
72.72 73
73 81
73.28 49
73.56 59
73.84 58
74.12 70
74.4 61
74.68 57
74.96 66
75.24 59
75.52 66
75.8 52
76.08 59
76.36 53
76.64 56
76.92 67
77.2 47
77.48 55
77.76 56
78.04 62
78.32 46
78.6 63
78.88 46
79.16 49
79.44 51
79.72 52
80 29
80.28 51
80.56 44
80.84 40
81.12 44
81.4 55
81.68 43
81.96 32
82.24 41
82.52 46
82.8 47
83.08 44
83.36 35
83.64 51
83.92 49
84.2 40
84.48 27
84.76 38
85.04 51
85.32 39
85.6 32
85.88 36
86.16 35
86.44 49
86.72 49
87 34
87.28 37
87.56 41
87.84 36
88.12 38
88.4 33
88.68 40
88.96 40
89.24 41
89.52 31
89.8 34
90 32